Program started at: 2026-06-08 23:36:14 EDT 
Question 2 complete
Total Records: 306 
All Variables: STUDYID, USUBJID, SUBJID, RFSTDTC, RFENDTC, RFXSTDTC, RFXENDTC, RFICDTC, RFPENDTC, DTHDTC, DTHFL, SITEID, BRTHDTC, AGE, AGEU, SEX, RACE, ETHNIC, ARMCD, ARM, ACTARMCD, ACTARM, COUNTRY, DMDTC, DMDY, ARMNRS, ACTARMUD, TRT01P, TRT01A, AGEGR9, AGEGR9N, TRTSDTM, TRTSTMF, TRTEDTM, TRTETMF, TRTSDT, TRTEDT, TRTDURD, SAFFL, ITTFL, LSTAVLDT 

Session information:
R version 4.6.0 (2026-04-24 ucrt)
Platform: x86_64-w64-mingw32/x64
Running under: Windows 11 x64 (build 26200)

Matrix products: default
  LAPACK version 3.12.1

locale:
[1] LC_COLLATE=English_United States.utf8  LC_CTYPE=English_United States.utf8    LC_MONETARY=English_United States.utf8
[4] LC_NUMERIC=C                           LC_TIME=English_United States.utf8    

time zone: America/New_York
tzcode source: internal

attached base packages:
[1] stats     graphics  grDevices utils     datasets  methods   base     

other attached packages:
 [1] metatools_0.3.0       metacore_0.3.0        htmltools_0.5.9       gt_1.3.0              ggplot2_4.0.3         readr_2.2.0          
 [7] stringr_1.6.0         tidyr_1.3.2           haven_2.5.5           dplyr_1.2.1           admiral_1.4.2         pharmaversesdtm_1.4.1
[13] pharmaverseraw_0.1.1  sdtm.oak_0.2.0       

loaded via a namespace (and not attached):
 [1] generics_0.1.4     xml2_1.5.2         stringi_1.8.7      hms_1.1.4          digest_0.6.39      magrittr_2.0.5     evaluate_1.0.5    
 [8] grid_4.6.0         timechange_0.4.0   RColorBrewer_1.1-3 fastmap_1.2.0      cellranger_1.1.0   admiraldev_1.4.1   purrr_1.2.2       
[15] scales_1.4.0       cli_3.6.6          rlang_1.2.0        withr_3.0.2        otel_0.2.0         tools_4.6.0        tzdb_0.5.0        
[22] forcats_1.0.1      vctrs_0.7.3        R6_2.6.1           lifecycle_1.0.5    lubridate_1.9.5    fs_2.1.0           pkgconfig_2.0.3   
[29] pillar_1.11.1      gtable_0.3.6       glue_1.8.1         xfun_0.58          tibble_3.3.1       tidyselect_1.2.1   rstudioapi_0.18.0 
[36] knitr_1.51         farver_2.1.2       compiler_4.6.0     S7_0.2.2           roxygen2_8.0.0     readxl_1.5.0      
